File: ASCII/cp_metadata.mpt
EC-Lab ASCII FILE
Nb header lines : 58

Chronopotentiometry

Run on channel : 3 (SN 30533)
User :
CE vs. WE compliance from -10 V to 10 V
Electrode connection : standard
Ewe ctrl range : min = -2.50 V, max = 2.50 V
Safety Limits :
	|I| = 10.000 mA
	for t > 10 ms
	Do not start on E overload
Acquisition started on : 09/07/2018 21:04:05
Technique started on : 09/07/2018 21:09:05
Saved on :
	File : A49_3_at80C_0p18mAcm2_02_CP_C03.mpr
	Directory : C:\Users\user\Desktop\IPTS20444\A49_3\
	Host : 10.111.103.71
Device : VSP (SN 1597)
Address : 10.112.22.31
EC-Lab for windows v11.21 (software)
Internet server v11.20 (firmware)
Command interpretor v11.21 (firmware)
Electrode material :
Initial state :
Electrolyte :
Comments :
Electrode surface area : 0.040 cm²
Characteristic mass : 0.001 g
Equivalent Weight : 0.000 g/eq.
Density : 0.000 g/cm3
Text export
   Mode : Standard
   Time format : Absolute ISO 8601
Cycle Definition : Charge/Discharge alternance
Is                  -0.007
unit Is             mA
vs.                 <None>
ts (h:m:s)          1:00:0.0000
EM (V)              pass
dQM                 7.000
unit dQM            µA.h
record              Ewe
dEs (mV)            0.00
dts (s)             1.0000
E range min (V)     -2.500
E range max (V)     2.500
I Range             1 mA
Bandwidth           5
goto Ns'            0
nc cycles           0

Number of loops : 1
Loop 0 from point number 0 to 7200

mode	ox/red	error	control changes	Ns changes	counter inc.	Ns	time/s	control/mA	Ewe/V	I/mA	dQ/C	(Q-Qo)/C	half cycle	Q charge/discharge/mA.h	Q discharge/mA.h	Q charge/mA.h	Capacity/mA.h	Efficiency/%	cycle number	P/W
1	0	0	1	0	0	0	300.052	-0.007	-0.0305614	-0.00595417	0.0000000E+000	0.0000000E+000	0	0.000000000000000E+000	0.000000000000000E+000	0.000000000000000E+000	0.000000000000000E+000	0.0000000E+000	0.000000000000000E+000	1.81968e-07
1	0	0	1	0	0	0	302.052	-0.007	-0.0274652	-0.00872339	-1.34861e-05	-1.34861e-05	0	-3.74613e-06	3.74613e-06	0.000000000000000E+000	3.74613e-06	0.0000000E+000	0.000000000000000E+000	2.3959e-07
1	0	0	1	0	0	0	304.052	-0.007	-0.0300815	-0.0076921	-2.72247e-05	-2.72247e-05	0	-7.56243e-06	7.56243e-06	0.000000000000000E+000	7.56243e-06	0.0000000E+000	0.000000000000000E+000	2.3139e-07
1	0	0	1	0	0	0	306.052	-0.007	-0.038236	-0.00663533	-4.07153e-05	-4.07153e-05	0	-1.13098e-05	1.13098e-05	0.000000000000000E+000	1.13098e-05	0.0000000E+000	0.000000000000000E+000	2.53708e-07
1	0	0	1	0	0	0	308.052	-0.007	-0.0319912	-0.00646982	-5.43707e-05	-5.43707e-05	0	-1.5103e-05	1.5103e-05	0.000000000000000E+000	1.5103e-05	0.0000000E+000	0.000000000000000E+000	2.06977e-07
1	0	0	1	0	0	0	310.052	-0.007	-0.0283628	-0.00521571	-6.80655e-05	-6.80655e-05	0	-1.89071e-05	1.89071e-05	0.000000000000000E+000	1.89071e-05	0.0000000E+000	0.000000000000000E+000	1.47932e-07
1	0	0	1	0	0	0	312.052	-0.007	-0.0324114	-0.00499927	-8.19105e-05	-8.19105e-05	0	-2.27529e-05	2.27529e-05	0.000000000000000E+000	2.27529e-05	0.0000000E+000	0.000000000000000E+000	1.62033e-07
1	0	0	1	0	0	0	314.052	-0.007	-0.0351804	-0.00373879	-9.55858e-05	-9.55858e-05	0	-2.65516e-05	2.65516e-05	0.000000000000000E+000	2.65516e-05	0.0000000E+000	0.000000000000000E+000	1.31532e-07
1	0	0	1	0	0	0	316.052	-0.007	-0.0213541	-0.0207106	-0.000109302	-0.000109302	0	-3.03617e-05	3.03617e-05	0.000000000000000E+000	3.03617e-05	0.0000000E+000	0.000000000000000E+000	4.42257e-07
1	0	0	1	0	0	0	318.052	-0.007	-0.0127795	-0.0069409	-0.000122905	-0.000122905	0	-3.41404e-05	3.41404e-05	0.000000000000000E+000	3.41404e-05	0.0000000E+000	0.000000000000000E+000	8.87015e-08
1	0	0	1	0	0	0	320.052	-0.007	-0.0216024	-0.00517751	-0.000136599	-0.000136599	0	-3.79442e-05	3.79442e-05	0.000000000000000E+000	3.79442e-05	0.0000000E+000	0.000000000000000E+000	1.11847e-07
1	0	0	1	0	0	0	322.052	-0.007	-0.013276	0.00272909	-0.000150232	-0.000150232	0	-4.17312e-05	4.17312e-05	0.000000000000000E+000	4.17312e-05	0.0000000E+000	0.000000000000000E+000	-3.62316e-08
1	0	0	1	0	0	0	324.052	-0.007	-0.0365363	-0.000441189	-0.000163908	-0.000163908	0	-4.553e-05	4.553e-05	0.000000000000000E+000	4.553e-05	0.0000000E+000	0.000000000000000E+000	1.61194e-08
1	0	0	1	0	0	0	326.052	-0.007	-0.0199027	-0.00480192	-0.000177523	-0.000177523	0	-4.9312e-05	4.9312e-05	0.000000000000000E+000	4.9312e-05	0.0000000E+000	0.000000000000000E+000	9.55714e-08
1	0	0	1	0	0	0	328.052	-0.007	-0.0161979	-0.0132433	-0.000191093	-0.000191093	0	-5.30815e-05	5.30815e-05	0.000000000000000E+000	5.30815e-05	0.0000000E+000	0.000000000000000E+000	2.14513e-07
1	0	0	1	0	0	0	330.052	-0.007	-0.0269687	-0.00696637	-0.000204848	-0.000204848	0	-5.69022e-05	5.69022e-05	0.000000000000000E+000	5.69022e-05	0.0000000E+000	0.000000000000000E+000	1.87874e-07
1	0	0	1	0	0	0	332.052	-0.007	-0.0295277	-0.00783215	-0.000218582	-0.000218582	0	-6.07172e-05	6.07172e-05	0.000000000000000E+000	6.07172e-05	0.0000000E+000	0.000000000000000E+000	2.31265e-07
1	0	0	1	0	0	0	334.052	-0.007	-0.0284964	-0.00603693	-0.000232329	-0.000232329	0	-6.45359e-05	6.45359e-05	0.000000000000000E+000	6.45359e-05	0.0000000E+000	0.000000000000000E+000	1.72031e-07
1	0	0	1	0	0	0	336.052	-0.007	-0.0241232	-0.00865973	-0.000246004	-0.000246004	0	-6.83344e-05	6.83344e-05	0.000000000000000E+000	6.83344e-05	0.0000000E+000	0.000000000000000E+000	2.08901e-07
1	0	0	1	0	0	0	338.052	-0.007	-0.0310555	-0.00476372	-0.0002597	-0.0002597	0	-7.2139e-05	7.2139e-05	0.000000000000000E+000	7.2139e-05	0.0000000E+000	0.000000000000000E+000	1.4794e-07
1	0	0	1	0	0	0	340.052	-0.007	-0.0278662	-0.00764753	-0.000273364	-0.000273364	0	-7.59344e-05	7.59344e-05	0.000000000000000E+000	7.59344e-05	0.0000000E+000	0.000000000000000E+000	2.13108e-07
1	0	0	1	0	0	0	342.052	-0.007	-0.0229583	-0.00466823	-0.000287055	-0.000287055	0	-7.97374e-05	7.97374e-05	0.000000000000000E+000	7.97374e-05	0.0000000E+000	0.000000000000000E+000	1.07175e-07
1	0	0	1	0	0	0	344.052	-0.007	-0.0236076	-0.00685178	-0.000300495	-0.000300495	0	-8.34708e-05	8.34708e-05	0.000000000000000E+000	8.34708e-05	0.0000000E+000	0.000000000000000E+000	1.61754e-07
1	0	0	1	0	0	0	346.052	-0.007	-0.0280381	-0.00728467	-0.000314116	-0.000314116	0	-8.72545e-05	8.72545e-05	0.000000000000000E+000	8.72545e-05	0.0000000E+000	0.000000000000000E+000	2.04248e-07
1	0	0	1	0	0	0	348.052	-0.007	-0.0235885	-0.0070173	-0.000327628	-0.000327628	0	-9.10078e-05	9.10078e-05	0.000000000000000E+000	9.10078e-05	0.0000000E+000	0.000000000000000E+000	1.65527e-07
1	0	0	1	0	0	0	350.052	-0.007	-0.026243	-0.00542579	-0.000341506	-0.000341506	0	-9.48629e-05	9.48629e-05	0.000000000000000E+000	9.48629e-05	0.0000000E+000	0.000000000000000E+000	1.42389e-07
1	0	0	1	0	0	0	352.052	-0.007	-0.0308836	-0.00712552	-0.000355211	-0.000355211	0	-9.86697e-05	9.86697e-05	0.000000000000000E+000	9.86697e-05	0.0000000E+000	0.000000000000000E+000	2.20062e-07
1	0	0	1	0	0	0	354.052	-0.007	-0.0294895	-0.00475099	-0.000369004	-0.000369004	0	-0.000102501	0.000102501	0.000000000000000E+000	0.000102501	0.0000000E+000	0.000000000000000E+000	1.40104e-07
1	0	0	1	0	0	0	356.052	-0.007	-0.0221371	-0.00699183	-0.000382569	-0.000382569	0	-0.000106269	0.000106269	0.000000000000000E+000	0.000106269	0.0000000E+000	0.000000000000000E+000	1.54779e-07
1	0	0	1	0	0	0	358.052	-0.007	-0.0267204	-0.00739289	-0.000396454	-0.000396454	0	-0.000110126	0.000110126	0.000000000000000E+000	0.000110126	0.0000000E+000	0.000000000000000E+000	1.97541e-07
1	0	0	1	0	0	0	360.052	-0.007	-0.0259756	-0.00722738	-0.000409934	-0.000409934	0	-0.000113871	0.000113871	0.000000000000000E+000	0.000113871	0.0000000E+000	0.000000000000000E+000	1.87736e-07
1	0	0	1	0	0	0	362.052	-0.007	-0.0283819	-0.00536213	-0.000423869	-0.000423869	0	-0.000117741	0.000117741	0.000000000000000E+000	0.000117741	0.0000000E+000	0.000000000000000E+000	1.52187e-07
1	0	0	1	0	0	0	364.052	-0.007	-0.0256892	-0.00781942	-0.000437314	-0.000437314	0	-0.000121476	0.000121476	0.000000000000000E+000	0.000121476	0.0000000E+000	0.000000000000000E+000	2.00874e-07
1	0	0	1	0	0	0	366.052	-0.007	-0.0297951	-0.00640616	-0.000450966	-0.000450966	0	-0.000125268	0.000125268	0.000000000000000E+000	0.000125268	0.0000000E+000	0.000000000000000E+000	1.90872e-07
1	0	0	1	0	0	0	368.052	-0.007	-0.0240468	-0.00539396	-0.000464375	-0.000464375	0	-0.000128993	0.000128993	0.000000000000000E+000	0.000128993	0.0000000E+000	0.000000000000000E+000	1.29708e-07
1	0	0	1	0	0	0	370.052	-0.007	-0.0243142	-0.0076539	-0.000478276	-0.000478276	0	-0.000132854	0.000132854	0.000000000000000E+000	0.000132854	0.0000000E+000	0.000000000000000E+000	1.86098e-07
1	0	0	1	0	0	0	372.052	-0.007	-0.0255555	-0.00728467	-0.000491848	-0.000491848	0	-0.000136624	0.000136624	0.000000000000000E+000	0.000136624	0.0000000E+000	0.000000000000000E+000	1.86163e-07
1	0	0	1	0	0	0	374.052	-0.007	-0.024276	-0.0073165	-0.000505809	-0.000505809	0	-0.000140502	0.000140502	0.000000000000000E+000	0.000140502	0.0000000E+000	0.000000000000000E+000	1.77615e-07
1	0	0	1	0	0	0	376.052	-0.007	-0.0182031	-0.00958917	-0.000519342	-0.000519342	0	-0.000144262	0.000144262	0.000000000000000E+000	0.000144262	0.0000000E+000	0.000000000000000E+000	1.74553e-07
1	0	0	1	0	0	0	378.052	-0.007	-0.0190243	-0.00597963	-0.000533272	-0.000533272	0	-0.000148131	0.000148131	0.000000000000000E+000	0.000148131	0.0000000E+000	0.000000000000000E+000	1.13758e-07
1	0	0	1	0	0	0	380.052	-0.007	-0.0208194	-0.0093409	-0.000546769	-0.000546769	0	-0.00015188	0.00015188	0.000000000000000E+000	0.00015188	0.0000000E+000	0.000000000000000E+000	1.94472e-07
1	0	0	1	0	0	0	382.052	-0.007	-0.0158351	-0.00611332	-0.000560568	-0.000560568	0	-0.000155713	0.000155713	0.000000000000000E+000	0.000155713	0.0000000E+000	0.000000000000000E+000	9.68048e-08
1	0	0	1	0	0	0	384.052	-0.007	-0.0237795	-0.00631703	-0.000573965	-0.000573965	0	-0.000159435	0.000159435	0.000000000000000E+000	0.000159435	0.0000000E+000	0.000000000000000E+000	1.50216e-07
1	0	0	1	0	0	0	386.052	-0.007	-0.0181649	-0.0109961	-0.000587691	-0.000587691	0	-0.000163248	0.000163248	0.000000000000000E+000	0.000163248	0.0000000E+000	0.000000000000000E+000	1.99742e-07
1	0	0	1	0	0	0	388.052	-0.007	-0.0142309	-0.0104931	-0.000601081	-0.000601081	0	-0.000166967	0.000166967	0.000000000000000E+000	0.000166967	0.0000000E+000	0.000000000000000E+000	1.49327e-07
1	0	0	1	0	0	0	390.052	-0.007	-0.0309791	-0.00729104	-0.000614888	-0.000614888	0	-0.000170802	0.000170802	0.000000000000000E+000	0.000170802	0.0000000E+000	0.000000000000000E+000	2.2587e-07
1	0	0	1	0	0	0	392.052	-0.007	-0.0141736	-0.0131351	-0.000628414	-0.000628414	0	-0.000174559	0.000174559	0.000000000000000E+000	0.000174559	0.0000000E+000	0.000000000000000E+000	1.86171e-07
1	0	0	1	0	0	0	394.052	-0.007	-0.0273888	-0.00857061	-0.000642234	-0.000642234	0	-0.000178398	0.000178398	0.000000000000000E+000	0.000178398	0.0000000E+000	0.000000000000000E+000	2.34739e-07
1	0	0	1	0	0	0	396.052	-0.007	-0.0350086	-0.00721464	-0.000655771	-0.000655771	0	-0.000182159	0.000182159	0.000000000000000E+000	0.000182159	0.0000000E+000	0.000000000000000E+000	2.52574e-07
1	0	0	1	0	0	0	398.052	-0.007	-0.0248298	-0.00667353	-0.000669674	-0.000669674	0	-0.000186021	0.000186021	0.000000000000000E+000	0.000186021	0.0000000E+000	0.000000000000000E+000	1.65702e-07
1	0	0	1	0	0	0	400.052	-0.007	-0.0300433	-0.00808679	-0.000683257	-0.000683257	0	-0.000189794	0.000189794	0.000000000000000E+000	0.000189794	0.0000000E+000	0.000000000000000E+000	2.42954e-07
1	0	0	1	0	0	0	402.052	-0.007	-0.0312655	-0.0072974	-0.000696999	-0.000696999	0	-0.000193611	0.000193611	0.000000000000000E+000	0.000193611	0.0000000E+000	0.000000000000000E+000	2.28157e-07
1	0	0	1	0	0	0	404.052	-0.007	-0.0263576	-0.00663533	-0.00071053	-0.00071053	0	-0.000197369	0.000197369	0.000000000000000E+000	0.000197369	0.0000000E+000	0.000000000000000E+000	1.74891e-07
1	0	0	1	0	0	0	406.052	-0.007	-0.0316475	-0.00755204	-0.000724256	-0.000724256	0	-0.000201182	0.000201182	0.000000000000000E+000	0.000201182	0.0000000E+000	0.000000000000000E+000	2.39003e-07
1	0	0	1	0	0	0	408.052	-0.007	-0.0348749	-0.00703639	-0.000737809	-0.000737809	0	-0.000204947	0.000204947	0.000000000000000E+000	0.000204947	0.0000000E+000	0.000000000000000E+000	2.45393e-07
1	0	0	1	0	0	0	410.052	-0.007	-0.0345502	-0.00675629	-0.000751476	-0.000751476	0	-0.000208743	0.000208743	0.000000000000000E+000	0.000208743	0.0000000E+000	0.000000000000000E+000	2.33431e-07
1	0	0	1	0	0	0	412.052	-0.007	-0.0336145	-0.00571863	-0.000765034	-0.000765034	0	-0.000212509	0.000212509	0.000000000000000E+000	0.000212509	0.0000000E+000	0.000000000000000E+000	1.92229e-07
1	0	0	1	0	0	0	414.052	-0.007	-0.0354478	-0.00792127	-0.000778723	-0.000778723	0	-0.000216312	0.000216312	0.000000000000000E+000	0.000216312	0.0000000E+000	0.000000000000000E+000	2.80792e-07
1	0	0	1	0	0	0	416.052	-0.007	-0.0334617	-0.00612605	-0.000792464	-0.000792464	0	-0.000220129	0.000220129	0.000000000000000E+000	0.000220129	0.0000000E+000	0.000000000000000E+000	2.04988e-07
1	0	0	1	0	0	0	418.052	-0.007	-0.0484338	-0.0128995	-0.00080622	-0.00080622	0	-0.00022395	0.00022395	0.000000000000000E+000	0.00022395	0.0000000E+000	0.000000000000000E+000	6.24773e-07
1	0	0	1	0	0	0	420.052	-0.007	-0.023894	-0.012925	-0.000819888	-0.000819888	0	-0.000227747	0.000227747	0.000000000000000E+000	0.000227747	0.0000000E+000	0.000000000000000E+000	3.0883e-07
1	0	0	1	0	0	0	422.052	-0.007	-0.0261475	-0.00981835	-0.000833562	-0.000833562	0	-0.000231545	0.000231545	0.000000000000000E+000	0.000231545	0.0000000E+000	0.000000000000000E+000	2.56725e-07
1	0	0	1	0	0	0	424.052	-0.007	-0.0313037	-0.00776849	-0.000847315	-0.000847315	0	-0.000235365	0.000235365	0.000000000000000E+000	0.000235365	0.0000000E+000	0.000000000000000E+000	2.43183e-07
1	0	0	1	0	0	0	426.052	-0.007	-0.0220607	-0.00513295	-0.000860968	-0.000860968	0	-0.000239158	0.000239158	0.000000000000000E+000	0.000239158	0.0000000E+000	0.000000000000000E+000	1.13237e-07
1	0	0	1	0	0	0	428.052	-0.007	-0.0249444	-0.00666716	-0.000874806	-0.000874806	0	-0.000243002	0.000243002	0.000000000000000E+000	0.000243002	0.0000000E+000	0.000000000000000E+000	1.66308e-07
1	0	0	1	0	0	0	430.052	-0.007	-0.0226145	-0.00687088	-0.000888383	-0.000888383	0	-0.000246773	0.000246773	0.000000000000000E+000	0.000246773	0.0000000E+000	0.000000000000000E+000	1.55382e-07
1	0	0	1	0	0	0	432.052	-0.007	-0.0231684	-0.00709369	-0.000902061	-0.000902061	0	-0.000250573	0.000250573	0.000000000000000E+000	0.000250573	0.0000000E+000	0.000000000000000E+000	1.64349e-07
1	0	0	1	0	0	0	434.052	-0.007	-0.0133333	-0.0123902	-0.000915477	-0.000915477	0	-0.000254299	0.000254299	0.000000000000000E+000	0.000254299	0.0000000E+000	0.000000000000000E+000	1.65203e-07
1	0	0	1	0	0	0	436.052	-0.007	-0.015033	-0.00655894	-0.000929367	-0.000929367	0	-0.000258157	0.000258157	0.000000000000000E+000	0.000258157	0.0000000E+000	0.000000000000000E+000	9.86005e-08
1	0	0	1	0	0	0	438.052	-0.007	-0.0250781	-0.00970376	-0.00094294	-0.00094294	0	-0.000261928	0.000261928	0.000000000000000E+000	0.000261928	0.0000000E+000	0.000000000000000E+000	2.43352e-07
1	0	0	1	0	0	0	440.052	-0.007	-0.019559	-0.00518388	-0.000956751	-0.000956751	0	-0.000265764	0.000265764	0.000000000000000E+000	0.000265764	0.0000000E+000	0.000000000000000E+000	1.01391e-07
1	0	0	1	0	0	0	442.052	-0.007	-0.0287065	-0.0143764	-0.000970288	-0.000970288	0	-0.000269524	0.000269524	0.000000000000000E+000	0.000269524	0.0000000E+000	0.000000000000000E+000	4.12697e-07
1	0	0	1	0	0	0	444.052	-0.007	-0.0233784	-0.00513932	-0.000984104	-0.000984104	0	-0.000273362	0.000273362	0.000000000000000E+000	0.000273362	0.0000000E+000	0.000000000000000E+000	1.20149e-07
1	0	0	1	0	0	0	446.052	-0.007	-0.0256128	-0.00567406	-0.000997736	-0.000997736	0	-0.000277149	0.000277149	0.000000000000000E+000	0.000277149	0.0000000E+000	0.000000000000000E+000	1.45329e-07
1	0	0	1	0	0	0	448.052	-0.007	-0.0216215	-0.0112634	-0.00101157	-0.00101157	0	-0.000280992	0.000280992	0.000000000000000E+000	0.000280992	0.0000000E+000	0.000000000000000E+000	2.43532e-07
1	0	0	1	0	0	0	450.052	-0.007	-0.0229392	-0.00806769	-0.00102504	-0.00102504	0	-0.000284733	0.000284733	0.000000000000000E+000	0.000284733	0.0000000E+000	0.000000000000000E+000	1.85066e-07
1	0	0	1	0	0	0	452.052	-0.007	-0.0287065	-0.00848785	-0.00103871	-0.00103871	0	-0.000288532	0.000288532	0.000000000000000E+000	0.000288532	0.0000000E+000	0.000000000000000E+000	2.43657e-07
1	0	0	1	0	0	0	454.052	-0.007	-0.0337291	-0.00559131	-0.00105212	-0.00105212	0	-0.000292256	0.000292256	0.000000000000000E+000	0.000292256	0.0000000E+000	0.000000000000000E+000	1.88589e-07
1	0	0	1	0	0	0	456.052	-0.007	-0.0261284	-0.00759024	-0.00106596	-0.00106596	0	-0.0002961	0.0002961	0.000000000000000E+000	0.0002961	0.0000000E+000	0.000000000000000E+000	1.98321e-07
1	0	0	1	0	0	0	458.052	-0.007	-0.0287065	-0.00692181	-0.00107954	-0.00107954	0	-0.000299874	0.000299874	0.000000000000000E+000	0.000299874	0.0000000E+000	0.000000000000000E+000	1.98701e-07
1	0	0	1	0	0	0	460.052	-0.007	-0.0309218	-0.00680722	-0.00109348	-0.00109348	0	-0.000303745	0.000303745	0.000000000000000E+000	0.000303745	0.0000000E+000	0.000000000000000E+000	2.10491e-07
1	0	0	1	0	0	0	462.052	-0.007	-0.0280381	-0.00808042	-0.00110705	-0.00110705	0	-0.000307513	0.000307513	0.000000000000000E+000	0.000307513	0.0000000E+000	0.000000000000000E+000	2.2656e-07
1	0	0	1	0	0	0	464.052	-0.007	-0.0368037	-0.00652075	-0.00112087	-0.00112087	0	-0.000311352	0.000311352	0.000000000000000E+000	0.000311352	0.0000000E+000	0.000000000000000E+000	2.39988e-07
1	0	0	1	0	0	0	466.052	-0.007	-0.0334617	-0.00651438	-0.00113445	-0.00113445	0	-0.000315125	0.000315125	0.000000000000000E+000	0.000315125	0.0000000E+000	0.000000000000000E+000	2.17982e-07
1	0	0	1	0	0	0	468.052	-0.007	-0.0341492	-0.00804859	-0.00114827	-0.00114827	0	-0.000318963	0.000318963	0.000000000000000E+000	0.000318963	0.0000000E+000	0.000000000000000E+000	2.74853e-07
1	0	0	1	0	0	0	470.052	-0.007	-0.024868	-0.00977379	-0.00116176	-0.00116176	0	-0.000322711	0.000322711	0.000000000000000E+000	0.000322711	0.0000000E+000	0.000000000000000E+000	2.43054e-07
1	0	0	1	0	0	0	472.052	-0.007	-0.0230156	-0.00889528	-0.00117546	-0.00117546	0	-0.000326517	0.000326517	0.000000000000000E+000	0.000326517	0.0000000E+000	0.000000000000000E+000	2.0473e-07
1	0	0	1	0	0	0	474.052	-0.007	-0.0115764	-0.00543216	-0.00118901	-0.00118901	0	-0.00033028	0.00033028	0.000000000000000E+000	0.00033028	0.0000000E+000	0.000000000000000E+000	6.28848e-08
1	0	0	1	0	0	0	476.052	-0.007	-0.0351422	-0.00523481	-0.00120271	-0.00120271	0	-0.000334085	0.000334085	0.000000000000000E+000	0.000334085	0.0000000E+000	0.000000000000000E+000	1.83963e-07
1	0	0	1	0	0	0	478.052	-0.007	-0.0196927	-0.00408892	-0.00121634	-0.00121634	0	-0.000337873	0.000337873	0.000000000000000E+000	0.000337873	0.0000000E+000	0.000000000000000E+000	8.05219e-08
1	0	0	1	0	0	0	480.052	-0.007	-0.0321631	-0.00526027	-0.00123011	-0.00123011	0	-0.000341697	0.000341697	0.000000000000000E+000	0.000341697	0.0000000E+000	0.000000000000000E+000	1.69187e-07
1	0	0	1	0	0	0	482.052	-0.007	-0.0281527	-0.00792127	-0.00124375	-0.00124375	0	-0.000345487	0.000345487	0.000000000000000E+000	0.000345487	0.0000000E+000	0.000000000000000E+000	2.23005e-07
1	0	0	1	0	0	0	484.052	-0.007	-0.0252117	-0.007934	-0.00125755	-0.00125755	0	-0.00034932	0.00034932	0.000000000000000E+000	0.00034932	0.0000000E+000	0.000000000000000E+000	2.0003e-07
1	0	0	1	0	0	0	486.052	-0.007	-0.0232829	-0.00910535	-0.00127117	-0.00127117	0	-0.000353103	0.000353103	0.000000000000000E+000	0.000353103	0.0000000E+000	0.000000000000000E+000	2.11999e-07
1	0	0	1	0	0	0	488.052	-0.007	-0.0208194	-0.0046364	-0.0012848	-0.0012848	0	-0.00035689	0.00035689	0.000000000000000E+000	0.00035689	0.0000000E+000	0.000000000000000E+000	9.65271e-08
1	0	0	1	0	0	0	490.052	-0.007	-0.021927	-0.00492287	-0.0012985	-0.0012985	0	-0.000360695	0.000360695	0.000000000000000E+000	0.000360695	0.0000000E+000	0.000000000000000E+000	1.07944e-07
1	0	0	1	0	0	0	492.052	-0.007	-0.0245433	-0.00643162	-0.00131219	-0.00131219	0	-0.000364498	0.000364498	0.000000000000000E+000	0.000364498	0.0000000E+000	0.000000000000000E+000	1.57854e-07
1	0	0	1	0	0	0	494.052	-0.007	-0.010507	-0.00843692	-0.00132598	-0.00132598	0	-0.000368327	0.000368327	0.000000000000000E+000	0.000368327	0.0000000E+000	0.000000000000000E+000	8.86465e-08
1	0	0	1	0	0	0	496.052	-0.007	-0.0162552	-0.0135106	-0.00133955	-0.00133955	0	-0.000372098	0.000372098	0.000000000000000E+000	0.000372098	0.0000000E+000	0.000000000000000E+000	2.19618e-07
1	0	0	1	0	0	0	498.052	-0.007	-0.0267586	-0.00730377	-0.00135317	-0.00135317	0	-0.000375882	0.000375882	0.000000000000000E+000	0.000375882	0.0000000E+000	0.000000000000000E+000	1.95439e-07
1	0	0	1	0	0	0	500.052	-0.007	-0.0271406	-0.0145738	-0.00136664	-0.00136664	0	-0.000379621	0.000379621	0.000000000000000E+000	0.000379621	0.0000000E+000	0.000000000000000E+000	3.9554e-07
1	0	0	1	0	0	0	502.052	-0.007	-0.0217743	-0.00678175	-0.00138047	-0.00138047	0	-0.000383464	0.000383464	0.000000000000000E+000	0.000383464	0.0000000E+000	0.000000000000000E+000	1.47668e-07
1	0	0	1	0	0	0	504.052	-0.007	-0.0338436	-0.00948095	-0.00139408	-0.00139408	0	-0.000387245	0.000387245	0.000000000000000E+000	0.000387245	0.0000000E+000	0.000000000000000E+000	3.2087e-07
1	0	0	1	0	0	0	506.052	-0.007	-0.0277135	-0.00747565	-0.00140793	-0.00140793	0	-0.000391092	0.000391092	0.000000000000000E+000	0.000391092	0.0000000E+000	0.000000000000000E+000	2.07176e-07
1	0	0	1	0	0	0	508.052	-0.007	-0.022519	-0.0056868	-0.00142147	-0.00142147	0	-0.000394854	0.000394854	0.000000000000000E+000	0.000394854	0.0000000E+000	0.000000000000000E+000	1.28061e-07
1	0	0	1	0	0	0	510.052	-0.007	-0.0287829	-0.00762844	-0.00143529	-0.00143529	0	-0.000398693	0.000398693	0.000000000000000E+000	0.000398693	0.0000000E+000	0.000000000000000E+000	2.19569e-07
1	0	0	1	0	0	0	512.052	-0.007	-0.0297569	-0.00647618	-0.00144889	-0.00144889	0	-0.00040247	0.00040247	0.000000000000000E+000	0.00040247	0.0000000E+000	0.000000000000000E+000	1.92711e-07
1	0	0	1	0	0	0	514.052	-0.007	-0.0293558	-0.00822048	-0.00146258	-0.00146258	0	-0.000406273	0.000406273	0.000000000000000E+000	0.000406273	0.0000000E+000	0.000000000000000E+000	2.41319e-07
1	0	0	1	0	0	0	516.052	-0.007	-0.0406804	-0.0056868	-0.00147611	-0.00147611	0	-0.000410031	0.000410031	0.000000000000000E+000	0.000410031	0.0000000E+000	0.000000000000000E+000	2.31341e-07
1	0	0	1	0	0	0	518.052	-0.007	-0.0295659	-0.00638706	-0.00148982	-0.00148982	0	-0.000413839	0.000413839	0.000000000000000E+000	0.000413839	0.0000000E+000	0.000000000000000E+000	1.88839e-07
1	0	0	1	0	0	0	520.052	-0.007	-0.0383887	-0.0033059	-0.00150342	-0.00150342	0	-0.000417617	0.000417617	0.000000000000000E+000	0.000417617	0.0000000E+000	0.000000000000000E+000	1.26909e-07
1	0	0	1	0	0	0	522.052	-0.007	-0.0440033	-0.00126241	-0.00151711	-0.00151711	0	-0.00042142	0.00042142	0.000000000000000E+000	0.00042142	0.0000000E+000	0.000000000000000E+000	5.55501e-08
1	0	0	1	0	0	0	524.052	-0.007	-0.0369756	-0.00681995	-0.00153074	-0.00153074	0	-0.000425204	0.000425204	0.000000000000000E+000	0.000425204	0.0000000E+000	0.000000000000000E+000	2.52171e-07
1	0	0	1	0	0	0	526.052	-0.007	-0.0340155	-0.00750112	-0.00154452	-0.00154452	0	-0.000429032	0.000429032	0.000000000000000E+000	0.000429032	0.0000000E+000	0.000000000000000E+000	2.55154e-07
1	0	0	1	0	0	0	528.052	-0.007	-0.0375103	-0.00992021	-0.00155817	-0.00155817	0	-0.000432825	0.000432825	0.000000000000000E+000	0.000432825	0.0000000E+000	0.000000000000000E+000	3.7211e-07
1	0	0	1	0	0	0	530.052	-0.007	-0.0166562	-0.0145101	-0.00157195	-0.00157195	0	-0.000436653	0.000436653	0.000000000000000E+000	0.000436653	0.0000000E+000	0.000000000000000E+000	2.41684e-07
1	0	0	1	0	0	0	532.052	-0.007	-0.0253836	-0.00673083	-0.00158556	-0.00158556	0	-0.000440435	0.000440435	0.000000000000000E+000	0.000440435	0.0000000E+000	0.000000000000000E+000	1.70853e-07
1	0	0	1	0	0	0	534.052	-0.007	-0.0299669	-0.00828414	-0.00159925	-0.00159925	0	-0.000444235	0.000444235	0.000000000000000E+000	0.000444235	0.0000000E+000	0.000000000000000E+000	2.4825e-07
1	0	0	1	0	0	0	536.052	-0.007	-0.0272742	-0.00684541	-0.00161287	-0.00161287	0	-0.000448021	0.000448021	0.000000000000000E+000	0.000448021	0.0000000E+000	0.000000000000000E+000	1.86703e-07
1	0	0	1	0	0	0	538.052	-0.007	-0.0216788	-0.00798493	-0.00162657	-0.00162657	0	-0.000451826	0.000451826	0.000000000000000E+000	0.000451826	0.0000000E+000	0.000000000000000E+000	1.73104e-07
1	0	0	1	0	0	0	540.052	-0.007	-0.0242378	-0.00759661	-0.00164033	-0.00164033	0	-0.000455647	0.000455647	0.000000000000000E+000	0.000455647	0.0000000E+000	0.000000000000000E+000	1.84125e-07
1	0	0	1	0	0	0	542.052	-0.007	-0.0247534	-0.00554038	-0.00165388	-0.00165388	0	-0.000459411	0.000459411	0.000000000000000E+000	0.000459411	0.0000000E+000	0.000000000000000E+000	1.37143e-07
1	0	0	1	0	0	0	544.052	-0.007	-0.0283246	-0.00971649	-0.00166755	-0.00166755	0	-0.000463208	0.000463208	0.000000000000000E+000	0.000463208	0.0000000E+000	0.000000000000000E+000	2.75216e-07
1	0	0	1	0	0	0	546.052	-0.007	-0.0212968	-0.00622791	-0.00168112	-0.00168112	0	-0.000466979	0.000466979	0.000000000000000E+000	0.000466979	0.0000000E+000	0.000000000000000E+000	1.32635e-07
1	0	0	1	0	0	0	548.052	-0.007	-0.021927	-0.00736106	-0.0016948	-0.0016948	0	-0.000470777	0.000470777	0.000000000000000E+000	0.000470777	0.0000000E+000	0.000000000000000E+000	1.61406e-07
1	0	0	1	0	0	0	550.052	-0.007	-0.0174392	-0.0138226	-0.00170852	-0.00170852	0	-0.000474589	0.000474589	0.000000000000000E+000	0.000474589	0.0000000E+000	0.000000000000000E+000	2.41055e-07
1	0	0	1	0	0	0	552.052	-0.007	-0.0246388	-0.00711279	-0.00172224	-0.00172224	0	-0.000478401	0.000478401	0.000000000000000E+000	0.000478401	0.0000000E+000	0.000000000000000E+000	1.75251e-07
1	0	0	1	0	0	0	554.052	-0.007	-0.026434	-0.0119573	-0.00173587	-0.00173587	0	-0.000482186	0.000482186	0.000000000000000E+000	0.000482186	0.0000000E+000	0.000000000000000E+000	3.1608e-07
1	0	0	1	0	0	0	556.052	-0.007	-0.0195781	-0.0122311	-0.00174964	-0.00174964	0	-0.000486012	0.000486012	0.000000000000000E+000	0.000486012	0.0000000E+000	0.000000000000000E+000	2.39461e-07
1	0	0	1	0	0	0	558.052	-0.007	-0.032736	-0.00666716	-0.00176328	-0.00176328	0	-0.000489801	0.000489801	0.000000000000000E+000	0.000489801	0.0000000E+000	0.000000000000000E+000	2.18256e-07
1	0	0	1	0	0	0	560.052	-0.007	-0.0228819	-0.0063616	-0.00177706	-0.00177706	0	-0.000493627	0.000493627	0.000000000000000E+000	0.000493627	0.0000000E+000	0.000000000000000E+000	1.45565e-07
1	0	0	1	0	0	0	562.052	-0.007	-0.0345311	-0.00851331	-0.0017906	-0.0017906	0	-0.00049739	0.00049739	0.000000000000000E+000	0.00049739	0.0000000E+000	0.000000000000000E+000	2.93974e-07
1	0	0	1	0	0	0	564.052	-0.007	-0.029394	-0.00251651	-0.00180431	-0.00180431	0	-0.000501196	0.000501196	0.000000000000000E+000	0.000501196	0.0000000E+000	0.000000000000000E+000	7.39704e-08
1	0	0	1	0	0	0	566.052	-0.007	-0.0291076	-0.00422261	-0.0018179	-0.0018179	0	-0.000504971	0.000504971	0.000000000000000E+000	0.000504971	0.0000000E+000	0.000000000000000E+000	1.2291e-07
1	0	0	1	0	0	0	568.052	-0.007	-0.0287829	-0.00678812	-0.00183171	-0.00183171	0	-0.000508808	0.000508808	0.000000000000000E+000	0.000508808	0.0000000E+000	0.000000000000000E+000	1.95382e-07
1	0	0	1	0	0	0	570.052	-0.007	-0.0324305	-0.00888891	-0.00184528	-0.00184528	0	-0.000512577	0.000512577	0.000000000000000E+000	0.000512577	0.0000000E+000	0.000000000000000E+000	2.88271e-07
1	0	0	1	0	0	0	572.052	-0.007	-0.0285537	-0.00770483	-0.00185909	-0.00185909	0	-0.000516413	0.000516413	0.000000000000000E+000	0.000516413	0.0000000E+000	0.000000000000000E+000	2.20002e-07
1	0	0	1	0	0	0	574.052	-0.007	-0.0285919	-0.00685178	-0.00187271	-0.00187271	0	-0.000520198	0.000520198	0.000000000000000E+000	0.000520198	0.0000000E+000	0.000000000000000E+000	1.95906e-07
1	0	0	1	0	0	0	576.052	-0.007	-0.0302916	-0.00692181	-0.00188648	-0.00188648	0	-0.000524021	0.000524021	0.000000000000000E+000	0.000524021	0.0000000E+000	0.000000000000000E+000	2.09672e-07
1	0	0	1	0	0	0	578.052	-0.007	-0.0326978	-0.0086661	-0.00190009	-0.00190009	0	-0.000527804	0.000527804	0.000000000000000E+000	0.000527804	0.0000000E+000	0.000000000000000E+000	2.83362e-07
1	0	0	1	0	0	0	580.052	-0.007	-0.0411196	-0.00472553	-0.00191376	-0.00191376	0	-0.000531601	0.000531601	0.000000000000000E+000	0.000531601	0.0000000E+000	0.000000000000000E+000	1.94312e-07
1	0	0	1	0	0	0	582.052	-0.007	-0.0283246	-0.00734833	-0.00192738	-0.00192738	0	-0.000535383	0.000535383	0.000000000000000E+000	0.000535383	0.0000000E+000	0.000000000000000E+000	2.08138e-07
1	0	0	1	0	0	0	584.052	-0.007	-0.0113281	-0.00859607	-0.00194108	-0.00194108	0	-0.00053919	0.00053919	0.000000000000000E+000	0.00053919	0.0000000E+000	0.000000000000000E+000	9.73775e-08
1	0	0	1	0	0	0	586.052	-0.007	-0.0107552	-0.0111234	-0.00195489	-0.00195489	0	-0.000543025	0.000543025	0.000000000000000E+000	0.000543025	0.0000000E+000	0.000000000000000E+000	1.19635e-07
1	0	0	1	0	0	0	588.052	-0.007	-0.0277708	-0.0106841	-0.00196853	-0.00196853	0	-0.000546815	0.000546815	0.000000000000000E+000	0.000546815	0.0000000E+000	0.000000000000000E+000	2.96706e-07
1	0	0	1	0	0	0	590.052	-0.007	-0.00783337	-0.00492924	-0.00198211	-0.00198211	0	-0.000550586	0.000550586	0.000000000000000E+000	0.000550586	0.0000000E+000	0.000000000000000E+000	3.86126e-08
1	0	0	1	0	0	0	592.052	-0.007	-0.0370329	-0.00944912	-0.00199575	-0.00199575	0	-0.000554375	0.000554375	0.000000000000000E+000	0.000554375	0.0000000E+000	0.000000000000000E+000	3.49928e-07
1	0	0	1	0	0	0	594.052	-0.007	-0.0306544	-0.0066799	-0.00200951	-0.00200951	0	-0.000558198	0.000558198	0.000000000000000E+000	0.000558198	0.0000000E+000	0.000000000000000E+000	2.04768e-07
1	0	0	1	0	0	0	596.052	-0.007	-0.02546	-0.00506929	-0.0020232	-0.0020232	0	-0.000562	0.000562	0.000000000000000E+000	0.000562	0.0000000E+000	0.000000000000000E+000	1.29064e-07
1	0	0	1	0	0	0	598.052	-0.007	-0.0192343	-0.0073356	-0.00203696	-0.00203696	0	-0.000565822	0.000565822	0.000000000000000E+000	0.000565822	0.0000000E+000	0.000000000000000E+000	1.41095e-07
1	0	0	1	0	0	0	600.052	-0.007	-0.0268541	-0.00753294	-0.00205056	-0.00205056	0	-0.0005696	0.0005696	0.000000000000000E+000	0.0005696	0.0000000E+000	0.000000000000000E+000	2.0229e-07
1	0	0	1	0	0	0	602.052	-0.007	-0.0260138	-0.00829687	-0.00206418	-0.00206418	0	-0.000573382	0.000573382	0.000000000000000E+000	0.000573382	0.0000000E+000	0.000000000000000E+000	2.15833e-07
1	0	0	1	0	0	0	604.052	-0.007	-0.0170764	-0.00760297	-0.00207787	-0.00207787	0	-0.000577187	0.000577187	0.000000000000000E+000	0.000577187	0.0000000E+000	0.000000000000000E+000	1.29831e-07
1	0	0	1	0	0	0	606.052	-0.007	-0.0214496	-0.00559767	-0.00209154	-0.00209154	0	-0.000580983	0.000580983	0.000000000000000E+000	0.000580983	0.0000000E+000	0.000000000000000E+000	1.20068e-07
1	0	0	1	0	0	0	608.052	-0.007	-0.0216215	-0.00814408	-0.00210517	-0.00210517	0	-0.000584771	0.000584771	0.000000000000000E+000	0.000584771	0.0000000E+000	0.000000000000000E+000	1.76087e-07
1	0	0	1	0	0	0	610.052	-0.007	-0.0299287	-0.0040189	-0.00211883	-0.00211883	0	-0.000588564	0.000588564	0.000000000000000E+000	0.000588564	0.0000000E+000	0.000000000000000E+000	1.2028e-07
1	0	0	1	0	0	0	612.052	-0.007	-0.0251545	-0.00711279	-0.00213244	-0.00213244	0	-0.000592345	0.000592345	0.000000000000000E+000	0.000592345	0.0000000E+000	0.000000000000000E+000	1.78918e-07
1	0	0	1	0	0	0	614.052	-0.007	-0.0282482	-0.00711279	-0.00214609	-0.00214609	0	-0.000596135	0.000596135	0.000000000000000E+000	0.000596135	0.0000000E+000	0.000000000000000E+000	2.00923e-07
1	0	0	1	0	0	0	616.052	-0.007	-0.0404321	0.00206703	-0.00215974	-0.00215974	0	-0.000599928	0.000599928	0.000000000000000E+000	0.000599928	0.0000000E+000	0.000000000000000E+000	-8.35743e-08
1	0	0	1	0	0	0	618.052	-0.007	-0.0284773	-0.00969103	-0.00217342	-0.00217342	0	-0.000603727	0.000603727	0.000000000000000E+000	0.000603727	0.0000000E+000	0.000000000000000E+000	2.75975e-07
1	0	0	1	0	0	0	620.052	-0.007	-0.022519	-0.0126767	-0.00218713	-0.00218713	0	-0.000607535	0.000607535	0.000000000000000E+000	0.000607535	0.0000000E+000	0.000000000000000E+000	2.85467e-07
1	0	0	1	0	0	0	622.052	-0.007	-0.0366891	-0.0019945	-0.00220088	-0.00220088	0	-0.000611357	0.000611357	0.000000000000000E+000	0.000611357	0.0000000E+000	0.000000000000000E+000	7.31764e-08
1	0	0	1	0	0	0	624.052	-0.007	-0.0339964	-0.00515842	-0.00221451	-0.00221451	0	-0.000615141	0.000615141	0.000000000000000E+000	0.000615141	0.0000000E+000	0.000000000000000E+000	1.75368e-07
1	0	0	1	0	0	0	626.052	-0.007	-0.025269	-0.00704913	-0.00222818	-0.00222818	0	-0.00061894	0.00061894	0.000000000000000E+000	0.00061894	0.0000000E+000	0.000000000000000E+000	1.78125e-07
1	0	0	1	0	0	0	628.052	-0.007	-0.031361	-0.00691544	-0.00224183	-0.00224183	0	-0.00062273	0.00062273	0.000000000000000E+000	0.00062273	0.0000000E+000	0.000000000000000E+000	2.16875e-07
1	0	0	1	0	0	0	630.052	-0.007	-0.0252117	-0.00622791	-0.00225547	-0.00225547	0	-0.000626519	0.000626519	0.000000000000000E+000	0.000626519	0.0000000E+000	0.000000000000000E+000	1.57016e-07
1	0	0	1	0	0	0	632.052	-0.007	-0.0220034	-0.00788308	-0.00226907	-0.00226907	0	-0.000630296	0.000630296	0.000000000000000E+000	0.000630296	0.0000000E+000	0.000000000000000E+000	1.73455e-07
1	0	0	1	0	0	0	634.052	-0.007	-0.0303871	-0.00620881	-0.0022828	-0.0022828	0	-0.000634112	0.000634112	0.000000000000000E+000	0.000634112	0.0000000E+000	0.000000000000000E+000	1.88668e-07
1	0	0	1	0	0	0	636.052	-0.007	-0.0333662	-0.00655258	-0.0022964	-0.0022964	0	-0.00063789	0.00063789	0.000000000000000E+000	0.00063789	0.0000000E+000	0.000000000000000E+000	2.18635e-07
1	0	0	1	0	0	0	638.052	-0.007	-0.0340728	-0.0056486	-0.00231015	-0.00231015	0	-0.000641709	0.000641709	0.000000000000000E+000	0.000641709	0.0000000E+000	0.000000000000000E+000	1.92464e-07
1	0	0	1	0	0	0	640.052	-0.007	-0.0275607	-0.00752021	-0.00232373	-0.00232373	0	-0.00064548	0.00064548	0.000000000000000E+000	0.00064548	0.0000000E+000	0.000000000000000E+000	2.07262e-07
1	0	0	1	0	0	0	642.052	-0.007	-0.0329843	-0.00625337	-0.0023375	-0.0023375	0	-0.000649306	0.000649306	0.000000000000000E+000	0.000649306	0.0000000E+000	0.000000000000000E+000	2.06263e-07
1	0	0	1	0	0	0	644.052	-0.007	-0.0256701	-0.00672446	-0.00235112	-0.00235112	0	-0.00065309	0.00065309	0.000000000000000E+000	0.00065309	0.0000000E+000	0.000000000000000E+000	1.72617e-07
1	0	0	1	0	0	0	646.052	-0.007	-0.029203	-0.00698547	-0.00236479	-0.00236479	0	-0.000656886	0.000656886	0.000000000000000E+000	0.000656886	0.0000000E+000	0.000000000000000E+000	2.03997e-07
1	0	0	1	0	0	0	648.052	-0.007	-0.0285155	-0.00657167	-0.00237848	-0.00237848	0	-0.000660689	0.000660689	0.000000000000000E+000	0.000660689	0.0000000E+000	0.000000000000000E+000	1.87395e-07
1	0	0	1	0	0	0	650.052	-0.007	-0.0304253	-0.00635523	-0.00239213	-0.00239213	0	-0.000664481	0.000664481	0.000000000000000E+000	0.000664481	0.0000000E+000	0.000000000000000E+000	1.93359e-07
1	0	0	1	0	0	0	652.052	-0.007	-0.0281909	-0.00575682	-0.00240578	-0.00240578	0	-0.000668273	0.000668273	0.000000000000000E+000	0.000668273	0.0000000E+000	0.000000000000000E+000	1.6229e-07
1	0	0	1	0	0	0	654.052	-0.007	-0.0257274	-0.00523481	-0.00241942	-0.00241942	0	-0.000672062	0.000672062	0.000000000000000E+000	0.000672062	0.0000000E+000	0.000000000000000E+000	1.34678e-07
1	0	0	1	0	0	0	656.052	-0.007	-0.0269496	-0.00510749	-0.00243308	-0.00243308	0	-0.000675856	0.000675856	0.000000000000000E+000	0.000675856	0.0000000E+000	0.000000000000000E+000	1.37645e-07
1	0	0	1	0	0	0	658.052	-0.007	-0.0246197	-0.011047	-0.00244661	-0.00244661	0	-0.000679613	0.000679613	0.000000000000000E+000	0.000679613	0.0000000E+000	0.000000000000000E+000	2.71974e-07
1	0	0	1	0	0	0	660.052	-0.007	-0.0495988	-0.00416532	-0.00246038	-0.00246038	0	-0.000683438	0.000683438	0.000000000000000E+000	0.000683438	0.0000000E+000	0.000000000000000E+000	2.06594e-07
1	0	0	1	0	0	0	662.052	-0.007	-0.0321058	-0.0037006	-0.0024741	-0.0024741	0	-0.000687251	0.000687251	0.000000000000000E+000	0.000687251	0.0000000E+000	0.000000000000000E+000	1.18811e-07
1	0	0	1	0	0	0	664.052	-0.007	-0.0294704	-0.0106523	-0.00248781	-0.00248781	0	-0.000691059	0.000691059	0.000000000000000E+000	0.000691059	0.0000000E+000	0.000000000000000E+000	3.13927e-07
1	0	0	1	0	0	0	666.052	-0.007	-0.029394	-0.00687088	-0.00250133	-0.00250133	0	-0.000694814	0.000694814	0.000000000000000E+000	0.000694814	0.0000000E+000	0.000000000000000E+000	2.01963e-07
1	0	0	1	0	0	0	668.052	-0.007	-0.0257465	-0.000931373	-0.00251508	-0.00251508	0	-0.000698634	0.000698634	0.000000000000000E+000	0.000698634	0.0000000E+000	0.000000000000000E+000	2.39796e-08
1	0	0	1	0	0	0	670.052	-0.007	-0.023684	-0.00359874	-0.00252872	-0.00252872	0	-0.000702422	0.000702422	0.000000000000000E+000	0.000702422	0.0000000E+000	0.000000000000000E+000	8.52324e-08
1	0	0	1	0	0	0	672.052	-0.007	-0.0142118	-0.00555948	-0.00254234	-0.00254234	0	-0.000706205	0.000706205	0.000000000000000E+000	0.000706205	0.0000000E+000	0.000000000000000E+000	7.90102e-08
1	0	0	1	0	0	0	674.052	-0.007	-0.0224809	-0.00823321	-0.00255599	-0.00255599	0	-0.000709996	0.000709996	0.000000000000000E+000	0.000709996	0.0000000E+000	0.000000000000000E+000	1.8509e-07
1	0	0	1	0	0	0	676.052	-0.007	-0.0115	-0.0115117	-0.00256965	-0.00256965	0	-0.00071379	0.00071379	0.000000000000000E+000	0.00071379	0.0000000E+000	0.000000000000000E+000	1.32385e-07
1	0	0	1	0	0	0	678.052	-0.007	-0.0247534	-0.00809952	-0.00258332	-0.00258332	0	-0.000717589	0.000717589	0.000000000000000E+000	0.000717589	0.0000000E+000	0.000000000000000E+000	2.00491e-07
1	0	0	1	0	0	0	680.052	-0.007	-0.0276562	-0.00736743	-0.00259708	-0.00259708	0	-0.000721411	0.000721411	0.000000000000000E+000	0.000721411	0.0000000E+000	0.000000000000000E+000	2.03755e-07
1	0	0	1	0	0	0	682.052	-0.007	-0.0269496	-0.00741836	-0.00261083	-0.00261083	0	-0.00072523	0.00072523	0.000000000000000E+000	0.00072523	0.0000000E+000	0.000000000000000E+000	1.99922e-07
1	0	0	1	0	0	0	684.052	-0.007	-0.0308072	-0.00728467	-0.00262457	-0.00262457	0	-0.000729046	0.000729046	0.000000000000000E+000	0.000729046	0.0000000E+000	0.000000000000000E+000	2.2442e-07
1	0	0	1	0	0	0	686.052	-0.007	-0.0271024	-0.00657167	-0.00263827	-0.00263827	0	-0.000732853	0.000732853	0.000000000000000E+000	0.000732853	0.0000000E+000	0.000000000000000E+000	1.78108e-07
1	0	0	1	0	0	0	688.052	-0.007	-0.0276753	-0.00838599	-0.00265204	-0.00265204	0	-0.000736679	0.000736679	0.000000000000000E+000	0.000736679	0.0000000E+000	0.000000000000000E+000	2.32085e-07
1	0	0	1	0	0	0	690.052	-0.007	-0.0219843	-0.00886981	-0.00266564	-0.00266564	0	-0.000740455	0.000740455	0.000000000000000E+000	0.000740455	0.0000000E+000	0.000000000000000E+000	1.94997e-07
1	0	0	1	0	0	0	692.052	-0.007	-0.0366509	-0.00484011	-0.00267925	-0.00267925	0	-0.000744237	0.000744237	0.000000000000000E+000	0.000744237	0.0000000E+000	0.000000000000000E+000	1.77395e-07
1	0	0	1	0	0	0	694.052	-0.007	-0.0161024	-0.0185143	-0.00269287	-0.00269287	0	-0.000748021	0.000748021	0.000000000000000E+000	0.000748021	0.0000000E+000	0.000000000000000E+000	2.98126e-07
1	0	0	1	0	0	0	696.052	-0.007	-0.0300433	-0.00871703	-0.00270659	-0.00270659	0	-0.00075183	0.00075183	0.000000000000000E+000	0.00075183	0.0000000E+000	0.000000000000000E+000	2.61888e-07
1	0	0	1	0	0	0	698.052	-0.007	-0.0328888	-0.00466823	-0.00272021	-0.00272021	0	-0.000755615	0.000755615	0.000000000000000E+000	0.000755615	0.0000000E+000	0.000000000000000E+000	1.53532e-07
1	0	0	1	0	0	0	700.052	-0.007	-0.0422655	0.000755625	-0.00273393	-0.00273393	0	-0.000759425	0.000759425	0.000000000000000E+000	0.000759425	0.0000000E+000	0.000000000000000E+000	-3.19368e-08
1	0	0	1	0	0	0	702.052	-0.007	-0.0426665	-0.00267566	-0.00274755	-0.00274755	0	-0.000763209	0.000763209	0.000000000000000E+000	0.000763209	0.0000000E+000	0.000000000000000E+000	1.14161e-07
1	0	0	1	0	0	0	704.052	-0.007	-0.0381978	-0.00743745	-0.00276124	-0.00276124	0	-0.000767012	0.000767012	0.000000000000000E+000	0.000767012	0.0000000E+000	0.000000000000000E+000	2.84094e-07
1	0	0	1	0	0	0	706.052	-0.007	-0.0303298	-0.00525391	-0.00277486	-0.00277486	0	-0.000770796	0.000770796	0.000000000000000E+000	0.000770796	0.0000000E+000	0.000000000000000E+000	1.5935e-07
1	0	0	1	0	0	0	708.052	-0.007	-0.0355242	-0.00798493	-0.00278857	-0.00278857	0	-0.000774602	0.000774602	0.000000000000000E+000	0.000774602	0.0000000E+000	0.000000000000000E+000	2.83658e-07
1	0	0	1	0	0	0	710.052	-0.007	-0.0342065	-0.00726557	-0.00280224	-0.00280224	0	-0.000778401	0.000778401	0.000000000000000E+000	0.000778401	0.0000000E+000	0.000000000000000E+000	2.4853e-07
1	0	0	1	0	0	0	712.052	-0.007	-0.0293558	-0.00722101	-0.00281592	-0.00281592	0	-0.000782201	0.000782201	0.000000000000000E+000	0.000782201	0.0000000E+000	0.000000000000000E+000	2.11979e-07
1	0	0	1	0	0	0	714.052	-0.007	-0.0262048	-0.00659714	-0.00282954	-0.00282954	0	-0.000785984	0.000785984	0.000000000000000E+000	0.000785984	0.0000000E+000	0.000000000000000E+000	1.72877e-07
1	0	0	1	0	0	0	716.052	-0.007	-0.0298332	-0.00470006	-0.0028432	-0.0028432	0	-0.000789779	0.000789779	0.000000000000000E+000	0.000789779	0.0000000E+000	0.000000000000000E+000	1.40218e-07
1	0	0	1	0	0	0	718.052	-0.007	-0.0298523	-0.0072974	-0.00285687	-0.00285687	0	-0.000793576	0.000793576	0.000000000000000E+000	0.000793576	0.0000000E+000	0.000000000000000E+000	2.17845e-07
1	0	0	1	0	0	0	720.052	-0.007	-0.0331752	-0.00803586	-0.0028706	-0.0028706	0	-0.00079739	0.00079739	0.000000000000000E+000	0.00079739	0.0000000E+000	0.000000000000000E+000	2.66592e-07
1	0	0	1	0	0	0	722.052	-0.007	-0.0230156	-0.0083287	-0.00288427	-0.00288427	0	-0.000801186	0.000801186	0.000000000000000E+000	0.000801186	0.0000000E+000	0.000000000000000E+000	1.9169e-07
1	0	0	1	0	0	0	724.052	-0.007	-0.0230538	-0.00835416	-0.0028979	-0.0028979	0	-0.000804972	0.000804972	0.000000000000000E+000	0.000804972	0.0000000E+000	0.000000000000000E+000	1.92595e-07
1	0	0	1	0	0	0	726.052	-0.007	-0.0325832	-0.00610695	-0.00291161	-0.00291161	0	-0.000808781	0.000808781	0.000000000000000E+000	0.000808781	0.0000000E+000	0.000000000000000E+000	1.98984e-07
1	0	0	1	0	0	0	728.052	-0.007	-0.0295659	-0.00852605	-0.00292528	-0.00292528	0	-0.000812579	0.000812579	0.000000000000000E+000	0.000812579	0.0000000E+000	0.000000000000000E+000	2.5208e-07
1	0	0	1	0	0	0	730.052	-0.007	-0.00424312	-0.0089653	-0.00293896	-0.00293896	0	-0.000816377	0.000816377	0.000000000000000E+000	0.000816377	0.0000000E+000	0.000000000000000E+000	3.80408e-08
1	0	0	1	0	0	0	732.052	-0.007	-0.0302916	-0.0076539	-0.00295261	-0.00295261	0	-0.000820171	0.000820171	0.000000000000000E+000	0.000820171	0.0000000E+000	0.000000000000000E+000	2.31849e-07
1	0	0	1	0	0	0	734.052	-0.007	-0.0205711	-0.00440722	-0.0029663	-0.0029663	0	-0.000823971	0.000823971	0.000000000000000E+000	0.000823971	0.0000000E+000	0.000000000000000E+000	9.06617e-08
1	0	0	1	0	0	0	736.052	-0.007	-0.01996	-0.00490377	-0.00298004	-0.00298004	0	-0.000827789	0.000827789	0.000000000000000E+000	0.000827789	0.0000000E+000	0.000000000000000E+000	9.78795e-08
1	0	0	1	0	0	0	738.052	-0.007	-0.0164844	-0.00929634	-0.00299367	-0.00299367	0	-0.000831575	0.000831575	0.000000000000000E+000	0.000831575	0.0000000E+000	0.000000000000000E+000	1.53244e-07
1	0	0	1	0	0	0	740.052	-0.007	-0.0169427	-0.00575682	-0.00300732	-0.00300732	0	-0.000835366	0.000835366	0.000000000000000E+000	0.000835366	0.0000000E+000	0.000000000000000E+000	9.75361e-08
1	0	0	1	0	0	0	742.052	-0.007	-0.0212395	-0.00815682	-0.00302092	-0.00302092	0	-0.000839144	0.000839144	0.000000000000000E+000	0.000839144	0.0000000E+000	0.000000000000000E+000	1.73247e-07
1	0	0	1	0	0	0	744.052	-0.007	-0.0267013	-0.0053112	-0.00303442	-0.00303442	0	-0.000842893	0.000842893	0.000000000000000E+000	0.000842893	0.0000000E+000	0.000000000000000E+000	1.41816e-07
1	0	0	1	0	0	0	746.052	-0.007	-0.0210104	-0.00631067	-0.00304815	-0.00304815	0	-0.000846708	0.000846708	0.000000000000000E+000	0.000846708	0.0000000E+000	0.000000000000000E+000	1.3259e-07
1	0	0	1	0	0	0	748.052	-0.007	-0.0269114	-0.00907989	-0.00306176	-0.00306176	0	-0.000850489	0.000850489	0.000000000000000E+000	0.000850489	0.0000000E+000	0.000000000000000E+000	2.44352e-07
1	0	0	1	0	0	0	750.052	-0.007	-0.0271215	-0.00391067	-0.00307551	-0.00307551	0	-0.000854309	0.000854309	0.000000000000000E+000	0.000854309	0.0000000E+000	0.000000000000000E+000	1.06063e-07
1	0	0	1	0	0	0	752.052	-0.007	-0.015033	-0.0128358	-0.00308916	-0.00308916	0	-0.000858101	0.000858101	0.000000000000000E+000	0.000858101	0.0000000E+000	0.000000000000000E+000	1.92961e-07
1	0	0	1	0	0	0	754.052	-0.007	-0.0352377	-0.00601783	-0.00310285	-0.00310285	0	-0.000861903	0.000861903	0.000000000000000E+000	0.000861903	0.0000000E+000	0.000000000000000E+000	2.12055e-07
1	0	0	1	0	0	0	756.052	-0.007	-0.034512	-0.011117	-0.00311651	-0.00311651	0	-0.000865697	0.000865697	0.000000000000000E+000	0.000865697	0.0000000E+000	0.000000000000000E+000	3.83671e-07
1	0	0	1	0	0	0	758.052	-0.007	-0.0502099	0.00474712	-0.00313022	-0.00313022	0	-0.000869505	0.000869505	0.000000000000000E+000	0.000869505	0.0000000E+000	0.000000000000000E+000	-2.38352e-07
1	0	0	1	0	0	0	760.052	-0.007	-0.03371	-0.00230644	-0.00314389	-0.00314389	0	-0.000873302	0.000873302	0.000000000000000E+000	0.000873302	0.0000000E+000	0.000000000000000E+000	7.77498e-08
1	0	0	1	0	0	0	762.052	-0.007	-0.0408141	-0.00163164	-0.00315754	-0.00315754	0	-0.000877095	0.000877095	0.000000000000000E+000	0.000877095	0.0000000E+000	0.000000000000000E+000	6.65937e-08
1	0	0	1	0	0	0	764.052	-0.007	-0.0355051	-0.00489104	-0.00317117	-0.00317117	0	-0.00088088	0.00088088	0.000000000000000E+000	0.00088088	0.0000000E+000	0.000000000000000E+000	1.73657e-07
1	0	0	1	0	0	0	766.052	-0.007	-0.0326405	-0.00871066	-0.0031849	-0.0031849	0	-0.000884693	0.000884693	0.000000000000000E+000	0.000884693	0.0000000E+000	0.000000000000000E+000	2.8432e-07
1	0	0	1	0	0	0	768.052	-0.007	-0.0369183	-0.00857697	-0.00319855	-0.00319855	0	-0.000888487	0.000888487	0.000000000000000E+000	0.000888487	0.0000000E+000	0.000000000000000E+000	3.16647e-07
1	0	0	1	0	0	0	770.052	-0.007	-0.0309791	-0.00816318	-0.00321232	-0.00321232	0	-0.00089231	0.00089231	0.000000000000000E+000	0.00089231	0.0000000E+000	0.000000000000000E+000	2.52888e-07
1	0	0	1	0	0	0	772.052	-0.007	-0.035295	-0.00773029	-0.00322594	-0.00322594	0	-0.000896094	0.000896094	0.000000000000000E+000	0.000896094	0.0000000E+000	0.000000000000000E+000	2.72841e-07
1	0	0	1	0	0	0	774.052	-0.007	-0.0349895	-0.00680085	-0.00323964	-0.00323964	0	-0.000899901	0.000899901	0.000000000000000E+000	0.000899901	0.0000000E+000	0.000000000000000E+000	2.37958e-07
1	0	0	1	0	0	0	776.052	-0.007	-0.0373766	-0.00677539	-0.00325326	-0.00325326	0	-0.000903684	0.000903684	0.000000000000000E+000	0.000903684	0.0000000E+000	0.000000000000000E+000	2.53241e-07
1	0	0	1	0	0	0	778.052	-0.007	-0.0287256	-0.00645072	-0.00326696	-0.00326696	0	-0.00090749	0.00090749	0.000000000000000E+000	0.00090749	0.0000000E+000	0.000000000000000E+000	1.85301e-07
1	0	0	1	0	0	0	780.052	-0.007	-0.0371474	-0.00808042	-0.00328061	-0.00328061	0	-0.00091128	0.00091128	0.000000000000000E+000	0.00091128	0.0000000E+000	0.000000000000000E+000	3.00167e-07
1	0	0	1	0	0	0	782.052	-0.007	-0.041979	-0.00624701	-0.00329427	-0.00329427	0	-0.000915074	0.000915074	0.000000000000000E+000	0.000915074	0.0000000E+000	0.000000000000000E+000	2.62243e-07
1	0	0	1	0	0	0	784.052	-0.007	-0.0413106	-0.00340776	-0.00330789	-0.00330789	0	-0.000918858	0.000918858	0.000000000000000E+000	0.000918858	0.0000000E+000	0.000000000000000E+000	1.40777e-07
1	0	0	1	0	0	0	786.052	-0.007	-0.0351804	-0.00886344	-0.0033216	-0.0033216	0	-0.000922666	0.000922666	0.000000000000000E+000	0.000922666	0.0000000E+000	0.000000000000000E+000	3.1182e-07
1	0	0	1	0	0	0	788.052	-0.007	-0.0385415	-0.00564223	-0.00333522	-0.00333522	0	-0.000926451	0.000926451	0.000000000000000E+000	0.000926451	0.0000000E+000	0.000000000000000E+000	2.1746e-07
1	0	0	1	0	0	0	790.052	-0.007	-0.0322777	-0.0066799	-0.0033489	-0.0033489	0	-0.000930251	0.000930251	0.000000000000000E+000	0.000930251	0.0000000E+000	0.000000000000000E+000	2.15612e-07
1	0	0	1	0	0	0	792.052	-0.007	-0.0345693	-0.00525391	-0.00336254	-0.00336254	0	-0.000934039	0.000934039	0.000000000000000E+000	0.000934039	0.0000000E+000	0.000000000000000E+000	1.81624e-07
1	0	0	1	0	0	0	794.052	-0.007	-0.0400884	-0.00690271	-0.0033763	-0.0033763	0	-0.00093786	0.00093786	0.000000000000000E+000	0.00093786	0.0000000E+000	0.000000000000000E+000	2.76718e-07
1	0	0	1	0	0	0	796.052	-0.007	-0.0341683	-0.0046555	-0.00338986	-0.00338986	0	-0.000941628	0.000941628	0.000000000000000E+000	0.000941628	0.0000000E+000	0.000000000000000E+000	1.5907e-07
1	0	0	1	0	0	0	798.052	-0.007	-0.0351422	-0.00766663	-0.00340351	-0.00340351	0	-0.00094542	0.00094542	0.000000000000000E+000	0.00094542	0.0000000E+000	0.000000000000000E+000	2.69423e-07
1	0	0	1	0	0	0	800.052	-0.007	-0.0396683	-0.00425444	-0.00341713	-0.00341713	0	-0.000949202	0.000949202	0.000000000000000E+000	0.000949202	0.0000000E+000	0.000000000000000E+000	1.68766e-07
1	0	0	1	0	0	0	802.052	-0.007	-0.0351231	-0.00792764	-0.00343083	-0.00343083	0	-0.000953008	0.000953008	0.000000000000000E+000	0.000953008	0.0000000E+000	0.000000000000000E+000	2.78444e-07
1	0	0	1	0	0	0	804.052	-0.007	-0.0271406	-0.00788308	-0.00344455	-0.00344455	0	-0.00095682	0.00095682	0.000000000000000E+000	0.00095682	0.0000000E+000	0.000000000000000E+000	2.13951e-07
1	0	0	1	0	0	0	806.052	-0.007	-0.0378349	-0.00944275	-0.0034582	-0.0034582	0	-0.000960611	0.000960611	0.000000000000000E+000	0.000960611	0.0000000E+000	0.000000000000000E+000	3.57266e-07
1	0	0	1	0	0	0	808.052	-0.007	-0.0373384	-0.00579502	-0.00347184	-0.00347184	0	-0.0009644	0.0009644	0.000000000000000E+000	0.0009644	0.0000000E+000	0.000000000000000E+000	2.16377e-07
1	0	0	1	0	0	0	810.052	-0.007	-0.0316475	-0.00888891	-0.0034856	-0.0034856	0	-0.000968223	0.000968223	0.000000000000000E+000	0.000968223	0.0000000E+000	0.000000000000000E+000	2.81311e-07
1	0	0	1	0	0	0	812.052	-0.007	-0.035295	-0.0100093	-0.00349923	-0.00349923	0	-0.000972008	0.000972008	0.000000000000000E+000	0.000972008	0.0000000E+000	0.000000000000000E+000	3.53279e-07
1	0	0	1	0	0	0	814.052	-0.007	-0.0420554	-0.00890801	-0.00351303	-0.00351303	0	-0.000975843	0.000975843	0.000000000000000E+000	0.000975843	0.0000000E+000	0.000000000000000E+000	3.7463e-07
1	0	0	1	0	0	0	816.052	-0.007	-0.0294513	-0.00856424	-0.00352666	-0.00352666	0	-0.000979628	0.000979628	0.000000000000000E+000	0.000979628	0.0000000E+000	0.000000000000000E+000	2.52228e-07
1	0	0	1	0	0	0	818.052	-0.007	-0.0233593	-0.00727194	-0.00354031	-0.00354031	0	-0.00098342	0.00098342	0.000000000000000E+000	0.00098342	0.0000000E+000	0.000000000000000E+000	1.69868e-07
1	0	0	1	0	0	0	820.052	-0.007	-0.0256701	-0.0101812	-0.00355393	-0.00355393	0	-0.000987203	0.000987203	0.000000000000000E+000	0.000987203	0.0000000E+000	0.000000000000000E+000	2.61352e-07