File: ASCII/eis_metadata.mpt
EC-Lab ASCII FILE
Nb header lines : 69

Potentio Electrochemical Impedance Spectroscopy

Run on channel : 1 (SN 30532)
User :
CE vs. WE compliance from -10 V to 10 V
Electrode connection : standard
Ewe ctrl range : min = -1.00 V, max = 1.00 V
Safety Limits :
	|I| = 1.000 mA
	for t > 10 ms
	Do not start on E overload
Acquisition started on : 09/09/2018 08:33:58
Technique started on : 09/09/2018 08:33:58
Saved on :
	File : A49-4_StableCycling_RT_EIS_C01.mpr
	Directory : C:\Users\user\Desktop\IPTS20444\Final EISs\
	Host : 10.111.103.71
Device : VSP (SN 1597)
Address : 10.112.22.31
EC-Lab for windows v11.21 (software)
Internet server v11.20 (firmware)
Command interpretor v11.21 (firmware)
Electrode material :
Initial state :
Electrolyte :
Comments :
Electrode surface area : 0.001 cm²
Characteristic mass : 0.001 g
Equivalent Weight : 0.000 g/eq.
Density : 0.000 g/cm3
Text export
   Mode : Standard
   Time format : Absolute ISO 8601
Cycle Definition : Charge/Discharge alternance
Mode                Single sine
E (V)               0.0000
vs.                 Eoc
tE (h:m:s)          0:00:0.0000
record              0
dI                  0.000
unit dI             mA
dt (s)              0.000
fi                  1.000
unit fi             MHz
ff                  250.000
unit ff             mHz
Nd                  15
Points              per decade
spacing             Logarithmic
Va (mV)             80.0
pw                  0.10
Na                  3
corr                0
E range min (V)     -1.000
E range max (V)     1.000
I Range             1 mA
Bandwidth           5
nc cycles           0
goto Ns'            0
nr cycles           0
inc. cycle          0

Number of loops : 1
Loop 0 from point number 0 to 99

freq/Hz	Re(Z)/Ohm	-Im(Z)/Ohm	|Z|/Ohm	Phase(Z)/deg	time/s	<Ewe>/V	<I>/mA	Cs/µF	Cp/µF	cycle number	I Range	|Ewe|/V	|I|/A	Re(Y)/Ohm-1	Im(Y)/Ohm-1	|Y|/Ohm-1	Phase(Y)/deg
1.00002e+06	500.426	5279.08	5302.74	-84.5849	0.870476	0.00475845	0.000365184	3.01477e-05	2.98792e-05	1	12	0.00429239	8.09466e-07	1.77966e-05	0.00018774	0.000188582	84.5849
857658	1523.89	3955.99	4239.35	-68.9327	1.40746	0.00333201	0.000247057	4.69084e-05	4.08472e-05	1	12	0.00776412	1.83144e-06	8.47922e-05	0.000220119	0.000235885	68.9327
735572	1516.58	3764.57	4058.58	-68.0576	1.94347	0.00268429	0.000000000000000E+000	5.7475e-05	4.94496e-05	1	12	0.0128281	3.16074e-06
630864	1837.8	3725.65	4154.27	-63.7437	2.47946	0.00236665	0.000000000000000E+000	6.77147e-05	5.44624e-05	1	12	0.0196681	4.73443e-06
541067	2164.12	3818.45	4389.07	-60.4575	3.01847	0.00216454	0.000000000000000E+000	7.7034e-05	5.83057e-05	1	12	0.0283411	6.45721e-06
464046	2551.06	3965.98	4715.6	-57.2494	3.55645	0.00197507	0.000000000000000E+000	8.64786e-05	6.11695e-05	1	12	0.038856	8.23988e-06
397992	3035.11	4095.86	5097.84	-53.4608	4.09447	0.00181659	0.000000000000000E+000	9.76339e-05	6.30258e-05	1	12	0.0511508	1.00338e-05
341338	3557.67	4207.96	5510.35	-49.7868	4.63147	0.0018261	0.000000000000000E+000	0.000110806	6.46174e-05	1	12	0.0652224	1.18363e-05
292755	4123.75	4201.51	5887.1	-45.5352	5.03847	0.00155035	0.000000000000000E+000	0.000129393	6.59049e-05	1	12	0.0811869	1.37906e-05
251076	4652.99	4140.66	6228.59	-41.6656	5.57647	0.00148815	0.000000000000000E+000	0.000153089	6.76557e-05	1	12	0.0808845	1.2986e-05
215345	5106.35	4025.51	6502.27	-38.2499	6.11347	0.00144034	0.000000000000000E+000	0.000183597	7.03681e-05	1	12	0.0817195	1.25678e-05
184689	5600.45	3943.18	6849.36	-35.1487	6.65147	0.00148563	0.000000000000000E+000	0.000218541	7.24313e-05	1	12	0.0818807	1.19545e-05
158403	5955.15	3823.36	7076.85	-32.7015	7.18947	0.00147823	0.000000000000000E+000	0.000262792	7.67048e-05	1	12	0.081924	1.15763e-05
135847	6390.38	3694.43	7381.45	-30.0332	7.72848	0.0014976	0.000000000000000E+000	0.00031712	7.94394e-05	1	12	0.0813051	1.10148e-05
116510	6743.72	3609.97	7649.16	-28.1606	8.26647	0.0015436	0.000000000000000E+000	0.000378401	8.42817e-05	1	12	0.081496	1.06542e-05
99929.5	7033.05	3421.35	7821.09	-25.9414	8.80448	0.0015103	0.000000000000000E+000	0.000465509	8.90819e-05	1	12	0.0812243	1.03853e-05
85705.5	7443.73	3388.85	8178.84	-24.478	9.34146	0.00151589	0.000000000000000E+000	0.000547972	9.40764e-05	1	12	0.0812527	9.9345e-06
73504.3	7763.44	3299.71	8435.58	-23.027	9.88046	0.00153362	0.000000000000000E+000	0.000656193	0.000100404	1	12	0.0811358	9.61828e-06
63038.2	8043.89	3180.48	8649.83	-21.5734	10.4195	0.00150386	0.000000000000000E+000	0.000793823	0.000107323	1	12	0.0808459	9.34652e-06
54065.8	8313.37	3047.97	8854.51	-20.1347	10.8255	0.00147431	0.000000000000000E+000	0.000965799	0.00011444	1	12	0.0875936	9.89254e-06
46374	8563.03	3025.36	9081.75	-19.4585	11.3635	0.00153687	0.000000000000000E+000	0.00113441	0.000125888	1	12	0.0813535	8.9579e-06
39767.7	8895.55	2994.2	9385.95	-18.603	11.7685	0.00151927	0.000000000000000E+000	0.00133662	0.000136024	1	12	0.0860071	9.16339e-06
34107.8	9009.83	2896.15	9463.87	-17.8196	12.3065	0.00153506	0.000000000000000E+000	0.00161119	0.000150886	1	12	0.0809805	8.55681e-06
29255.1	9352.93	2876.98	9785.42	-17.098	12.7135	0.00150718	0.000000000000000E+000	0.00189095	0.000163454	1	12	0.0838485	8.56872e-06
25089.1	9515.45	2841.66	9930.7	-16.6275	13.1205	0.00154736	0.000000000000000E+000	0.00223236	0.000182788	1	12	0.0860807	8.66814e-06
21516.8	9778.75	2801.83	10172.2	-15.9882	13.5285	0.00154345	0.000000000000000E+000	0.00263997	0.000200286	1	12	0.087855	8.63674e-06
18454.9	10078.5	2796.89	10459.4	-15.5099	14.0655	0.00152917	0.000000000000000E+000	0.00308341	0.00022048	1	12	0.0808926	7.73395e-06
15829.1	10382.9	2869.66	10772.1	-15.4499	14.4695	0.00153936	0.000000000000000E+000	0.00350374	0.000248651	1	12	0.0818157	7.59512e-06
13574.5	10707.8	2805.53	11069.2	-14.682	14.8755	0.00158868	0.000000000000000E+000	0.0041791	0.00026846	1	12	0.0825038	7.45345e-06
11644.5	10829.5	2749.81	11173.1	-14.2474	15.2825	0.00154604	0.000000000000000E+000	0.00497045	0.000301058	1	12	0.0829846	7.42715e-06
9983.67	11155.1	2867.14	11517.6	-14.4145	15.6905	0.00152115	0.000000000000000E+000	0.00556008	0.00034455	1	12	0.0833556	7.23722e-06
8593.75	11431.5	2767.4	11761.7	-13.6087	16.1277	0.00153549	0.000000000000000E+000	0.00669215	0.000370484	1	12	0.0835958	7.10746e-06
7346.62	11537.9	2801.51	11873.2	-13.6478	16.6232	0.00149199	0.000000000000000E+000	0.00773287	0.000430516	1	12	0.083779	7.05615e-06
6322.93	12056.2	2833.59	12384.7	-13.2263	17.1845	0.0015267	0.000000000000000E+000	0.0088831	0.000465014	1	12	0.083959	6.77924e-06
5422.11	12413.8	2755.33	12715.9	-12.5143	17.8284	0.00151878	0.000000000000000E+000	0.0106531	0.000500184	1	12	0.0840715	6.61151e-06
4631.48	12578.8	2651.22	12855.2	-11.9019	18.5027	0.00150918	0.000000000000000E+000	0.0129615	0.000551301	1	12	0.0841116	6.54301e-06
3976.27	12848.8	2751.2	13140	-12.0858	19.1767	0.00152544	0.000000000000000E+000	0.0145486	0.000637783	1	12	0.0841827	6.40658e-06
3406.73	13121.2	2604.05	13377.1	-11.2251	19.8529	0.00149657	0.000000000000000E+000	0.0179405	0.000679844	1	12	0.0841883	6.29347e-06
2922.19	13324.3	2722.33	13599.6	-11.5474	20.529	0.0015207	0.000000000000000E+000	0.0200064	0.000801682	1	12	0.084217	6.19263e-06
2505.8	13609.1	2461.71	13830	-10.2532	21.2047	0.00152794	0.000000000000000E+000	0.025801	0.000817465	1	12	0.0842189	6.0896e-06
2150.69	14050.1	2400.95	14253.8	-9.69728	21.8787	0.00151097	0.000000000000000E+000	0.0308219	0.000874508	1	12	0.0842482	5.91057e-06
1843.23	14080.7	2465.76	14294.9	-9.93272	22.5549	0.00151367	0.000000000000000E+000	0.0350179	0.0010419	1	12	0.0842667	5.89486e-06
1582.53	14370.9	2320.64	14557	-9.17308	23.2314	0.00165668	0.000000000000000E+000	0.043337	0.00110136	1	12	0.0842671	5.78875e-06
1357.17	14820.6	2335.06	15003.5	-8.95362	23.9054	0.00155333	0.000000000000000E+000	0.0502212	0.00121647	1	12	0.0842846	5.61768e-06
1163.88	14996.5	2126.65	15146.6	-8.07126	24.581	0.00148766	0.000000000000000E+000	0.0643006	0.00126759	1	12	0.0842989	5.56554e-06
997.765	15144.2	2270.41	15313.5	-8.52622	25.2582	0.00154531	0.000000000000000E+000	0.0702568	0.00154436	1	12	0.0842811	5.50372e-06
855.274	15250.5	2226.34	15412.2	-8.30564	25.9327	0.00149111	0.000000000000000E+000	0.0835839	0.00174413	1	12	0.0842515	5.46655e-06
734.295	15517.6	1908.53	15634.5	-7.01168	26.6089	0.00149473	0.000000000000000E+000	0.113567	0.00169231	1	12	0.0842871	5.3911e-06
629.396	15717.4	1646.68	15803.4	-5.98095	27.2839	0.0015196	0.000000000000000E+000	0.153563	0.00166726	1	12	0.084293	5.33385e-06
540.173	15871.3	1736.58	15966	-6.24426	27.9587	0.00153207	0.000000000000000E+000	0.169665	0.00200719	1	12	0.0842528	5.277e-06
462.779	15629	1728.26	15724.2	-6.31017	28.6377	0.00148996	0.000000000000000E+000	0.198993	0.00240391	1	12	0.0842076	5.35528e-06
397.161	16163.6	1749.55	16258.1	-6.17763	29.3097	0.00149499	0.000000000000000E+000	0.229049	0.00265243	1	12	0.0842793	5.18385e-06
340.545	16233.9	1624.66	16314.9	-5.71505	29.9854	0.00138629	0.000000000000000E+000	0.287663	0.00285257	1	12	0.0842618	5.1647e-06
291.962	16232	1626.42	16313.3	-5.72184	30.6584	0.00150549	0.000000000000000E+000	0.335167	0.00333152	1	12	0.0842305	5.1633e-06
250.401	16413.8	1012.13	16444.9	-3.52858	31.3334	0.00154623	0.000000000000000E+000	0.627986	0.00237878	1	12	0.0842285	5.12185e-06
214.794	16594.9	1237.21	16641	-4.26372	32.0099	0.0014882	0.000000000000000E+000	0.5989	0.00331043	1	12	0.0842681	5.06388e-06
184.351	16825.3	1193.67	16867.6	-4.05804	32.6885	0.00145503	0.000000000000000E+000	0.723253	0.00362203	1	12	0.0842928	4.99732e-06
158.028	16855.7	1353.46	16910	-4.59082	33.3713	0.00148688	0.000000000000000E+000	0.744116	0.00476701	1	12	0.0842923	4.98476e-06
135.564	16863.2	1008.64	16893.3	-3.42295	34.0429	0.00151281	0.000000000000000E+000	1.16397	0.00414935	1	12	0.0842786	4.98887e-06
116.227	16802.9	1085.03	16837.9	-3.69468	34.7127	0.00152279	0.000000000000000E+000	1.26203	0.00524054	1	12	0.0842626	5.00433e-06
99.7765	16946.8	1145.23	16985.5	-3.86605	35.3902	0.0015015	0.000000000000000E+000	1.39283	0.00633183	1	12	0.0842803	4.9619e-06
85.465	16887.1	1131.39	16925	-3.83294	36.0597	0.00152161	0.000000000000000E+000	1.64595	0.00735511	1	12	0.0842568	4.97825e-06
73.3338	16935.7	973.805	16963.7	-3.2909	36.7483	0.00150497	0.000000000000000E+000	2.22866	0.00734427	1	12	0.0842737	4.9679e-06
62.926	17104.7	913.953	17129.1	-3.05857	37.4423	0.00149687	0.000000000000000E+000	2.76736	0.00787851	1	12	0.0842776	4.92013e-06
53.9808	16990.8	969.682	17018.4	-3.26639	38.1275	0.00150996	0.000000000000000E+000	3.04054	0.00987126	1	12	0.0842608	4.95116e-06
46.2582	17295.5	729.711	17310.9	-2.41592	38.7873	0.00155367	0.000000000000000E+000	4.71499	0.00837804	1	12	0.0842821	4.86873e-06
39.7078	17290.3	633.251	17301.9	-2.0975	39.4672	0.00151052	0.000000000000000E+000	6.32949	0.00847877	1	12	0.0842787	4.87106e-06
34.052	17468	870.255	17489.6	-2.85212	40.1593	0.00147314	0.000000000000000E+000	5.3707	0.0132973	1	12	0.0842748	4.81856e-06
29.1874	17229.3	762.238	17246.2	-2.53316	40.8503	0.00151423	0.000000000000000E+000	7.15375	0.0139743	1	12	0.0842592	4.88568e-06
25.0401	16994.9	651.464	17007.4	-2.19524	41.5254	0.00140303	0.000000000000000E+000	9.7565	0.0143152	1	12	0.0842618	4.95442e-06
21.4629	17316.8	926.114	17341.6	-3.06129	42.1591	0.00150625	0.000000000000000E+000	8.00695	0.0228359	1	12	0.0842728	4.85958e-06
18.4257	17593.3	702.175	17607.3	-2.28555	42.8859	0.00149474	0.000000000000000E+000	12.3013	0.0195639	1	12	0.0843087	4.78828e-06
15.7935	18098.6	-162.35	18099.3	0.513947	43.5307	0.00153638	0.000000000000000E+000	-62.0712	-0.00499425	1	12	0.0842742	4.6562e-06
13.532	17503.9	602.011	17514.2	-1.9698	44.2725	0.00151373	0.000000000000000E+000	19.5368	0.0230823	1	12	0.0842857	4.81241e-06
11.6257	17736.5	677.048	17749.5	-2.18606	44.8628	0.00152587	0.000000000000000E+000	20.22	0.0294204	1	12	0.0842907	4.74892e-06
9.96492	17464.9	412.397	17469.8	-1.35267	45.5425	0.0015025	0.000000000000000E+000	38.7285	0.0215818	1	12	0.0842706	4.8238e-06
8.54759	17629	580.102	17638.6	-1.8847	46.3238	0.00149165	0.000000000000000E+000	32.0975	0.034718	1	12	0.084283	4.77834e-06
7.3288	17549.5	551.678	17558.1	-1.80053	46.8102	0.00151723	0.000000000000000E+000	39.3642	0.0388611	1	12	0.0842637	4.79912e-06
6.29026	18255.6	786.901	18272.6	-2.46818	47.3667	0.00145147	0.000000000000000E+000	32.1538	0.059631	1	12	0.0844003	4.61896e-06
5.38793	17506.5	531.636	17514.6	-1.73942	48.0023	0.00149551	0.000000000000000E+000	55.5628	0.0511931	1	12	0.0842567	4.81066e-06
4.62826	17561.6	565.408	17570.7	-1.84404	48.7278	0.00151618	0.000000000000000E+000	60.8191	0.0629776	1	12	0.0842733	4.79624e-06
3.96171	17674.9	544.759	17683.3	-1.76536	49.5652	0.00152134	0.000000000000000E+000	73.7449	0.0699866	1	12	0.0842864	4.76644e-06
3.40266	17782.4	670.914	17795.1	-2.16069	50.5287	0.0014772	0.000000000000000E+000	69.7164	0.099099	1	12	0.0842896	4.73668e-06
2.91947	17576.1	472.245	17582.4	-1.53909	51.6423	0.00149249	0.000000000000000E+000	115.438	0.0832773	1	12	0.0842832	4.79361e-06
2.50401	17654.4	-43.8142	17654.5	0.142195	52.9303	0.00147817	0.000000000000000E+000	-1450.67	-0.00893491	1	12	0.0843442	4.7775e-06
2.14629	17126.7	-491.234	17133.8	1.64293	54.4239	0.0015221	0.000000000000000E+000	-150.953	-0.124084	1	12	0.0842856	4.91927e-06
1.83824	17718.8	566.663	17727.9	-1.83174	56.16	0.0014999	0.000000000000000E+000	152.79	0.15611	1	12	0.0842872	4.7545e-06
1.57828	17599.5	565.94	17608.6	-1.8418	58.1716	0.00149688	0.000000000000000E+000	178.183	0.184059	1	12	0.0842763	4.78609e-06
1.35352	17486.8	512.813	17494.3	-1.67976	60.5099	0.00148565	0.000000000000000E+000	229.296	0.197026	1	12	0.0842682	4.81689e-06
1.16016	17445.4	515.854	17453	-1.69372	63.229	0.00148024	0.000000000000000E+000	265.936	0.23232	1	12	0.0842818	4.82906e-06
0.995477	17214.2	561.431	17223.4	-1.868	66.3907	0.00149582	0.000000000000000E+000	284.769	0.302586	1	12	0.0842735	4.89297e-06
0.854759	17200.7	542.817	17209.3	-1.80753	70.0642	0.00150637	0.000000000000000E+000	343.023	0.341274	1	12	0.0842806	4.89739e-06
0.733155	17140.7	572.872	17150.2	-1.91422	74.3415	0.00149042	0.000000000000000E+000	378.937	0.422807	1	12	0.0842796	4.9142e-06
0.628419	17096.2	570.65	17105.7	-1.91175	79.3229	0.00148777	0.000000000000000E+000	443.815	0.493921	1	12	0.0842608	4.92589e-06
0.538125	17058.7	616.242	17069.9	-2.06889	85.1311	0.00146253	0.000000000000000E+000	479.939	0.6255	1	12	0.0842462	4.93537e-06
0.461732	16989	632.607	17000.8	-2.1325	91.8916	0.00147761	0.000000000000000E+000	544.874	0.754445	1	12	0.0842762	4.9572e-06
0.39589	16861.7	661.661	16874.7	-2.24716	99.7701	0.00149113	0.000000000000000E+000	607.589	0.934132	1	12	0.0842798	4.99445e-06
0.339615	16750.3	695.04	16764.7	-2.37607	108.947	0.00150646	0.000000000000000E+000	674.255	1.15891	1	12	0.0842671	5.02645e-06
0.291685	16786.4	645.817	16798.8	-2.20324	119.626	0.00151139	0.000000000000000E+000	844.881	1.2487	1	12	0.0842733	5.01663e-06
0.250176	16834.6	660.379	16847.6	-2.24641	132.069	0.00151067	0.000000000000000E+000	963.344	1.4801	1	12	0.0842825	5.00264e-06